Wavelength_(nm),Abs_(AU),PL_(intensity)
340.712,0,
341.091,0,
341.47,0,
341.849,0,
342.229,0.59,
342.608,0,
342.987,0.61,
343.366,0,
343.745,-0.16,
344.124,0,
344.503,0.27,
344.881,-0.43,
345.26,0,
345.639,0.14,
346.018,0.28,
346.396,0,
346.775,0.98,
347.154,-0.03,
347.532,0,
347.911,-0.23,
348.289,0.4,
348.668,0,
349.046,0.07,
349.425,-0.15,
349.803,0.2,
350.181,0.2,
350.56,0.23,
350.938,0.26,
351.316,0.18,
351.694,0.27,
352.072,0.17,
352.45,0.24,
352.828,0.2,
353.206,0.16,
353.584,0.31,
353.962,0.37,
354.34,0.3,
354.718,0.26,
355.095,0.24,
355.473,0.35,
355.851,0.24,
356.229,0.28,
356.606,0.32,
356.984,0.34,
357.361,0.27,
357.739,0.26,
358.116,0.28,
358.494,0.32,
358.871,0.27,
359.248,0.28,
359.626,0.34,
360.003,0.24,
360.38,0.27,
360.757,0.33,
361.134,0.31,
361.511,0.3,
361.888,0.25,
362.265,0.36,
362.642,0.2,
363.019,0.2,
363.396,0.3,
363.773,0.34,
364.15,0.37,
364.527,0.27,
364.903,0.27,
365.28,0.28,
365.657,0.36,
366.033,0.36,
366.41,0.35,
366.786,0.27,
367.163,0.27,
367.539,0.35,
367.915,0.23,
368.292,0.45,
368.668,0.35,
369.044,0.3,
369.421,0.3,
369.797,0.36,
370.173,0.4,
370.549,0.12,
370.925,0.34,
371.301,0.31,
371.677,0.31,
372.053,0.25,
372.429,0.18,
372.805,0.38,
373.181,0.34,
373.556,0.2,
373.932,0.28,
374.308,0.26,
374.683,0.27,
375.059,0.32,
375.435,0.27,
375.81,0.48,
376.186,0.4,
376.561,0.46,
376.936,0.42,
377.312,0.45,
377.687,0.51,
378.062,0.39,
378.438,0.56,
378.813,0.57,
379.188,0.65,
379.563,0.52,
379.938,0.6,
380.313,0.63,
380.688,0.64,
381.063,0.63,
381.438,0.63,
381.813,0.72,
382.188,0.74,
382.563,0.79,
382.937,0.81,
383.312,0.81,
383.687,0.83,
384.061,0.82,
384.436,0.83,
384.81,0.87,
385.185,0.83,
385.559,0.9,
385.934,0.87,
386.308,0.89,
386.682,0.9,
387.057,0.92,
387.431,0.93,
387.805,0.91,
388.179,0.92,
388.553,0.95,
388.927,0.98,
389.301,0.95,
389.675,0.94,
390.049,0.95,
390.423,0.96,
390.797,0.97,
391.171,0.97,
391.545,0.98,
391.919,0.97,
392.292,0.97,
392.666,0.97,
393.04,0.97,
393.413,0.97,
393.787,0.98,
394.16,0.97,
394.534,0.99,
394.907,0.99,
395.28,0.97,
395.654,0.98,
396.027,0.98,
396.4,0.98,
396.773,0.98,
397.147,0.97,
397.52,0.97,
397.893,0.98,
398.266,0.97,
398.639,0.98,
399.012,0.97,
399.385,0.97,
399.757,0.97,
400.13,0.97,
400.503,0.96,
400.876,0.96,
401.248,0.96,
401.621,0.96,
401.994,0.96,
402.366,0.95,
402.739,0.95,
403.111,0.95,
403.484,0.95,
403.856,0.95,
404.229,0.95,
404.601,0.94,
404.973,0.95,
405.345,0.95,
405.718,0.94,
406.09,0.94,
406.462,0.93,
406.834,0.94,
407.206,0.93,
407.578,0.93,
407.95,0.92,
408.322,0.91,
408.693,0.92,
409.065,0.91,
409.437,0.91,
409.809,0.9,
410.18,0.9,
410.552,0.89,
410.924,0.89,
411.295,0.89,
411.667,0.88,
412.038,0.88,
412.41,0.88,
412.781,0.87,
413.152,0.87,
413.524,0.85,
413.895,0.86,
414.266,0.85,
414.637,0.85,
415.008,0.84,
415.38,0.84,
415.751,0.84,
416.122,0.84,
416.493,0.83,
416.863,0.82,
417.234,0.82,
417.605,0.82,
417.976,0.81,
418.347,0.81,
418.717,0.81,
419.088,0.81,
419.459,0.8,
419.829,0.8,
420.2,0.8,
420.57,0.79,
420.941,0.79,
421.311,0.79,
421.682,0.79,
422.052,0.78,
422.422,0.78,
422.792,0.78,
423.163,0.78,
423.533,0.78,
423.903,0.78,
424.273,0.77,
424.643,0.77,
425.013,0.77,
425.383,0.77,
425.753,0.76,
426.123,0.76,
426.492,0.76,
426.862,0.76,
427.232,0.75,
427.602,0.75,
427.971,0.75,
428.341,0.75,
428.71,0.75,
429.08,0.74,
429.449,0.74,
429.819,0.74,
430.188,0.74,
430.557,0.73,
430.927,0.73,
431.296,0.72,
431.665,0.72,
432.034,0.71,
432.403,0.71,
432.772,0.71,
433.142,0.71,
433.51,0.71,
433.879,0.7,
434.248,0.7,
434.617,0.69,
434.986,0.69,
435.355,0.68,
435.724,0.68,
436.092,0.68,
436.461,0.68,
436.829,0.67,
437.198,0.67,
437.567,0.67,
437.935,0.67,
438.303,0.65,
438.672,0.66,
439.04,0.66,
439.408,0.65,
439.777,0.64,
440.145,0.65,
440.513,0.63,
440.881,0.63,
441.249,0.65,
441.617,0.63,
441.985,0.64,
442.353,0.65,
442.721,0.63,
443.089,0.64,
443.457,0.63,
443.825,0.62,
444.192,0.64,
444.56,0.62,
444.928,0.63,
445.295,0.62,
445.663,0.61,
446.03,0.62,
446.398,0.61,
446.765,0.63,
447.133,0.61,
447.5,0.62,
447.867,0.62,
448.235,0.6,
448.602,0.6,
448.969,0.61,
449.336,0.6,
449.703,0.61,
450.07,0.6,
450.437,0.61,
450.804,0.6,
451.171,0.6,
451.538,0.59,
451.905,0.61,
452.271,0.6,
452.638,0.59,
453.005,0.6,
453.372,0.59,
453.738,0.6,
454.105,0.59,
454.471,0.6,
454.838,0.59,
455.204,0.59,
455.57,0.59,
455.937,0.59,
456.303,0.6,
456.669,0.59,
457.036,0.59,
457.402,0.6,
457.768,0.59,
458.134,0.6,
458.5,0.58,
458.866,0.59,
459.232,0.58,
459.598,0.58,
459.964,0.58,
460.329,0.58,
460.695,0.59,
461.061,0.58,
461.427,0.58,
461.792,0.58,
462.158,0.58,
462.523,0.57,
462.889,0.56,
463.254,0.56,
463.62,0.57,
463.985,0.57,
464.35,0.56,
464.716,0.57,
465.081,0.56,
465.446,0.56,
465.811,0.56,
466.176,0.56,
466.541,0.56,
466.906,0.55,
467.271,0.56,
467.636,0.56,
468.001,0.56,
468.366,0.55,
468.731,0.55,
469.096,0.54,
469.46,0.55,
469.825,0.56,
470.19,0.55,
470.554,0.55,
470.919,0.54,
471.283,0.55,
471.648,0.55,
472.012,0.55,
472.376,0.55,
472.741,0.56,
473.105,0.54,
473.469,0.55,
473.833,0.55,
474.197,0.55,
474.561,0.55,
474.925,0.55,
475.289,0.55,
475.653,0.55,
476.017,0.55,
476.381,0.55,
476.745,0.54,
477.109,0.54,
477.472,0.55,
477.836,0.55,
478.2,0.55,
478.563,0.54,
478.927,0.54,
479.29,0.54,
479.654,0.54,
480.017,0.54,
480.381,0.54,
480.744,0.53,
481.107,0.54,
481.471,0.54,
481.834,0.53,
482.197,0.52,
482.56,0.53,
482.923,0.53,
483.286,0.53,
483.649,0.52,
484.012,0.52,
484.375,0.51,
484.738,0.51,
485.1,0.51,
485.463,0.51,
485.826,0.5,
486.188,0.51,
486.551,0.5,
486.914,0.5,
487.276,0.5,
487.639,0.49,
488.001,0.49,
488.363,0.49,
488.726,0.49,
489.088,0.49,
489.45,0.49,
489.812,0.49,
490.175,0.48,
490.537,0.49,
490.899,0.49,
491.261,0.48,
491.623,0.48,
491.985,0.49,
492.347,0.49,
492.708,0.49,
493.07,0.49,
493.432,0.49,
493.794,0.49,
494.155,0.49,
494.517,0.49,
494.879,0.49,
495.24,0.5,
495.602,0.49,
495.963,0.5,
496.324,0.5,
496.686,0.5,
497.047,0.5,
497.408,0.5,
497.769,0.51,
498.131,0.5,
498.492,0.5,
498.853,0.51,
499.214,0.5,
499.575,0.5,
499.936,0.5,
500.297,0.49,
500.658,0.49,
501.018,0.48,
501.379,0.48,
501.74,0.48,
502.1,0.46,
502.461,0.47,
502.822,0.45,
503.182,0.44,
503.543,0.44,
503.903,0.43,
504.263,0.42,
504.624,0.41,
504.984,0.4,
505.344,0.4,
505.705,0.39,
506.065,0.38,
506.425,0.37,
506.785,0.36,
507.145,0.34,
507.505,0.35,
507.865,0.33,
508.225,0.33,
508.585,0.33,
508.944,0.31,
509.304,0.3,
509.664,0.3,
510.023,0.3,
510.383,0.29,
510.743,0.28,
511.102,0.28,
511.462,0.27,
511.821,0.27,
512.18,0.26,
512.54,0.26,
512.899,0.26,
513.258,0.25,
513.618,0.25,
513.977,0.25,
514.336,0.24,
514.695,0.25,
515.054,0.24,
515.413,0.24,
515.772,0.24,
516.131,0.24,
516.49,0.23,
516.848,0.24,
517.207,0.23,
517.566,0.23,
517.924,0.23,
518.283,0.23,
518.642,0.23,
519,0.23,
519.359,0.23,
519.717,0.22,
520.075,0.23,
520.434,0.22,
520.792,0.22,
521.15,0.22,
521.508,0.22,
521.867,0.22,
522.225,0.22,
522.583,0.22,
522.941,0.22,
523.299,0.22,
523.657,0.21,
524.014,0.21,
524.372,0.22,
524.73,0.21,
525.088,0.21,
525.445,0.21,
525.803,0.21,
526.161,0.21,
526.518,0.21,
526.876,0.2,
527.233,0.21,
527.591,0.2,
527.948,0.2,
528.305,0.2,
528.662,0.2,
529.02,0.2,
529.377,0.2,
529.734,0.2,
530.091,0.2,
530.448,0.2,
530.805,0.2,
531.162,0.2,
531.519,0.19,
531.876,0.19,
532.233,0.19,
532.589,0.19,
532.946,0.2,
533.303,0.19,
533.659,0.19,
534.016,0.19,
534.372,0.19,
534.729,0.19,
535.085,0.19,
535.442,0.19,
535.798,0.19,
536.154,0.18,
536.511,0.19,
536.867,0.19,
537.223,0.18,
537.579,0.19,
537.935,0.19,
538.291,0.18,
538.647,0.18,
539.003,0.18,
539.359,0.18,
539.715,0.18,
540.07,0.18,
540.426,0.18,
540.782,0.18,
541.137,0.18,
541.493,0.18,
541.849,0.18,
542.204,0.18,
542.56,0.18,
542.915,0.18,
543.27,0.17,
543.626,0.18,
543.981,0.18,
544.336,0.18,
544.691,0.17,
545.046,0.17,
545.401,0.17,
545.756,0.17,
546.111,0.17,
546.466,0.17,
546.821,0.17,
547.176,0.17,
547.531,0.17,
547.886,0.17,
548.24,0.17,
548.595,0.17,
548.95,0.17,
549.304,0.17,
549.659,0.17,
550.013,0.17,
550.367,0.17,
550.722,0.17,
551.076,0.17,
551.43,0.17,
551.785,0.16,
552.139,0.17,
552.493,0.16,
552.847,0.16,
553.201,0.16,
553.555,0.16,
553.909,0.16,
554.263,0.16,
554.617,0.16,
554.971,0.16,
555.324,0.16,
555.678,0.16,
556.032,0.16,
556.385,0.16,
556.739,0.16,
557.092,0.16,
557.446,0.16,
557.799,0.16,
558.153,0.16,
558.506,0.16,
558.859,0.16,
559.212,0.16,
559.566,0.15,
559.919,0.16,
560.272,0.16,
560.625,0.15,
560.978,0.15,
561.331,0.15,
561.684,0.15,
562.037,0.15,
562.389,0.15,
562.742,0.15,
563.095,0.15,
563.448,0.15,
563.8,0.15,
564.153,0.15,
564.505,0.15,
564.858,0.15,
565.21,0.15,
565.562,0.15,
565.915,0.15,
566.267,0.15,
566.619,0.15,
566.972,0.15,
567.324,0.15,
567.676,0.15,
568.028,0.15,
568.38,0.15,
568.732,0.14,
569.084,0.14,
569.435,0.14,
569.787,0.14,
570.139,0.14,
570.491,0.14,
570.842,0.14,
571.194,0.14,
571.546,0.14,
571.897,0.14,
572.249,0.14,
572.6,0.14,
572.951,0.14,
573.303,0.14,
573.654,0.14,
574.005,0.14,
574.356,0.14,
574.707,0.14,
575.059,0.14,
575.41,0.14,
575.761,0.14,
576.112,0.14,
576.462,0.13,
576.813,0.13,
577.164,0.14,
577.515,0.13,
577.865,0.13,
578.216,0.13,
578.567,0.13,
578.917,0.13,
579.268,0.13,
579.618,0.13,
579.969,0.13,
580.319,0.13,
580.669,0.13,
581.02,0.13,
581.37,0.13,
581.72,0.13,
582.07,0.13,
582.42,0.13,
582.77,0.13,
583.12,0.13,
583.47,0.13,
583.82,0.13,
584.17,0.13,
584.52,0.13,
584.869,0.13,
585.219,0.13,
585.569,0.13,
585.918,0.13,
586.268,0.12,
586.617,0.13,
586.967,0.13,
587.316,0.12,
587.666,0.12,
588.015,0.13,
588.364,0.12,
588.713,0.13,
589.062,0.13,
589.412,0.13,
589.761,0.12,
590.11,0.12,
590.459,0.12,
590.807,0.12,
591.156,0.13,
591.505,0.12,
591.854,0.12,
592.203,0.13,
592.551,0.12,
592.9,0.12,
593.248,0.12,
593.597,0.12,
593.945,0.12,
594.294,0.12,
594.642,0.12,
594.991,0.12,
595.339,0.12,
595.687,0.12,
596.035,0.12,
596.383,0.12,
596.732,0.12,
597.08,0.12,
597.428,0.12,
597.775,0.12,
598.123,0.12,
598.471,0.12,
598.819,0.12,
599.167,0.12,
599.514,0.12,
599.862,0.12,
600.21,0.12,
600.557,0.12,
600.905,0.12,
601.252,0.12,
601.6,0.12,
601.947,0.12,
602.294,0.12,
602.641,0.12,
602.989,0.12,
603.336,0.12,
603.683,0.12,
604.03,0.12,
604.377,0.12,
604.724,0.12,
605.071,0.12,
605.418,0.11,
605.765,0.11,
606.111,0.11,
606.458,0.11,
606.805,0.11,
607.151,0.11,
607.498,0.11,
607.844,0.11,
608.191,0.11,
608.537,0.11,
608.884,0.11,
609.23,0.11,
609.576,0.11,
609.922,0.11,
610.269,0.11,
610.615,0.11,
610.961,0.11,
611.307,0.11,
611.653,0.11,
611.999,0.11,
612.345,0.11,
612.69,0.11,
613.036,0.11,
613.382,0.11,
613.728,0.11,
614.073,0.11,
614.419,0.11,
614.764,0.11,
615.11,0.11,
615.455,0.1,
615.801,0.1,
616.146,0.11,
616.491,0.11,
616.837,0.11,
617.182,0.1,
617.527,0.1,
617.872,0.11,
618.217,0.1,
618.562,0.1,
618.907,0.1,
619.252,0.1,
619.597,0.1,
619.941,0.1,
620.286,0.1,
620.631,0.1,
620.975,0.1,
621.32,0.1,
621.665,0.1,
622.009,0.1,
622.354,0.1,
622.698,0.1,
623.042,0.1,
623.387,0.1,
623.731,0.1,
624.075,0.1,
624.419,0.1,
624.763,0.1,
625.107,0.1,
625.451,0.1,
625.795,0.1,
626.139,0.1,
626.483,0.1,
626.827,0.1,
627.171,0.1,
627.514,0.1,
627.858,0.09,
628.201,0.09,
628.545,0.09,
628.888,0.1,
629.232,0.09,
629.575,0.09,
629.919,0.09,
630.262,0.1,
630.605,0.09,
630.948,0.09,
631.292,0.09,
631.635,0.09,
631.978,0.09,
632.321,0.09,
632.664,0.09,
633.007,0.09,
633.349,0.09,
633.692,0.09,
634.035,0.09,
634.378,0.09,
634.72,0.09,
635.063,0.09,
635.405,0.09,
635.748,0.09,
636.09,0.09,
636.433,0.09,
636.775,0.09,
637.117,0.09,
637.46,0.09,
637.802,0.09,
638.144,0.09,
638.486,0.09,
638.828,0.09,
639.17,0.09,
639.512,0.09,
639.854,0.09,
640.196,0.09,
640.538,0.09,
640.879,0.09,
641.221,0.09,
641.563,0.09,
641.904,0.09,
642.246,0.09,
642.587,0.09,
642.929,0.09,
643.27,0.09,
643.611,0.09,
643.953,0.09,
644.294,0.09,
644.635,0.09,
644.976,0.09,
645.317,0.09,
645.658,0.09,
645.999,0.09,
646.34,0.09,
646.681,0.09,
647.022,0.09,
647.363,0.09,
647.703,0.09,
648.044,0.09,
648.385,0.09,
648.725,0.09,
649.066,0.09,
649.406,0.09,
649.747,0.09,
650.087,0.09,
650.428,0.09,
650.768,0.09,
651.108,0.09,
651.448,0.09,
651.788,0.09,
652.128,0.09,
652.468,0.09,
652.808,0.09,
653.148,0.09,
653.488,0.09,
653.828,0.09,
654.168,0.09,
654.507,0.09,
654.847,0.09,
655.187,0.09,
655.526,0.09,
655.866,0.09,
656.205,0.09,
656.545,0.09,
656.884,0.09,
657.223,0.09,
657.563,0.09,
657.902,0.09,
658.241,0.09,
658.58,0.09,
658.919,0.09,
659.258,0.09,
659.597,0.09,
659.936,0.09,
660.275,0.09,
660.614,0.09,
660.952,0.09,
661.291,0.09,
661.63,0.09,
661.968,0.09,
662.307,0.09,
662.645,0.09,
662.984,0.09,
663.322,0.09,
663.661,0.09,
663.999,0.09,
664.337,0.08,
664.675,0.09,
665.013,0.08,
665.351,0.08,
665.689,0.09,
666.027,0.09,
666.365,0.08,
666.703,0.08,
667.041,0.09,
667.379,0.09,
667.717,0.08,
668.054,0.08,
668.392,0.08,
668.729,0.08,
669.067,0.08,
669.404,0.08,
669.742,0.08,
670.079,0.08,
670.417,0.08,
670.754,0.08,
671.091,0.08,
671.428,0.08,
671.765,0.08,
672.102,0.08,
672.439,0.08,
672.776,0.08,
673.113,0.08,
673.45,0.08,
673.787,0.08,
674.124,0.08,
674.46,0.08,
674.797,0.08,
675.134,0.08,
675.47,0.08,
675.807,0.08,
676.143,0.08,
676.479,0.08,
676.816,0.08,
677.152,0.08,
677.488,0.08,
677.824,0.08,
678.161,0.08,
678.497,0.08,
678.833,0.08,
679.169,0.08,
679.505,0.08,
679.84,0.08,
680.176,0.08,
680.512,0.08,
680.848,0.08,
681.183,0.08,
681.519,0.08,
681.855,0.07,
682.19,0.07,
682.525,0.08,
682.861,0.08,
683.196,0.07,
683.532,0.08,
683.867,0.07,
684.202,0.07,
684.537,0.07,
684.872,0.07,
685.207,0.07,
685.542,0.07,
685.877,0.07,
686.212,0.07,
686.547,0.07,
686.882,0.07,
687.216,0.07,
687.551,0.07,
687.886,0.07,
688.22,0.07,
688.555,0.07,
688.889,0.07,
689.224,0.07,
689.558,0.07,
689.892,0.07,
690.227,0.07,
690.561,0.07,
690.895,0.07,
691.229,0.07,
691.563,0.07,
691.897,0.07,
692.231,0.07,
692.565,0.07,
692.899,0.07,
693.233,0.07,
693.566,0.07,
693.9,0.07,
694.234,0.07,
694.567,0.07,
694.901,0.07,
695.234,0.07,
695.568,0.07,
695.901,0.07,
696.234,0.07,
696.567,0.07,
696.901,0.07,
697.234,0.07,
697.567,0.07,
697.9,0.07,
698.233,0.07,
698.566,0.07,
698.899,0.07,
699.232,0.07,
699.565,0.07,
699.897,0.07,
700.23,0.07,
700.563,0.07,
700.895,0.07,
701.228,0.07,
701.56,0.07,
701.893,0.07,
702.225,0.07,
702.557,0.07,
702.89,0.07,
703.222,0.07,
703.554,0.07,
703.886,0.07,
704.218,0.07,
704.55,0.07,
704.882,0.07,
705.214,0.07,
705.546,0.07,
705.878,0.07,
706.209,0.07,
706.541,0.07,
706.873,0.07,
707.204,0.07,
707.536,0.07,
707.867,0.07,
708.199,0.07,
708.53,0.07,
708.861,0.07,
709.193,0.07,
709.524,0.07,
709.855,0.07,
710.186,0.07,
710.517,0.07,
710.848,0.07,
711.179,0.07,
711.51,0.07,
711.841,0.07,
712.172,0.07,
712.502,0.07,
712.833,0.07,
713.164,0.07,
713.494,0.07,
713.825,0.07,
714.155,0.07,
714.486,0.07,
714.816,0.07,
715.146,0.07,
715.476,0.07,
715.807,0.07,
716.137,0.07,
716.467,0.07,
716.797,0.07,
717.127,0.07,
717.457,0.07,
717.787,0.07,
718.117,0.07,
718.446,0.07,
718.776,0.07,
719.106,0.07,
719.435,0.07,
719.765,0.07,
720.095,0.07,
720.424,0.07,
720.753,0.07,
721.083,0.07,
721.412,0.07,
721.741,0.07,
722.07,0.07,
722.4,0.07,
722.729,0.07,
723.058,0.07,
723.387,0.07,
723.716,0.07,
724.044,0.07,
724.373,0.07,
724.702,0.07,
725.031,0.07,
725.359,0.07,
725.688,0.07,
726.017,0.07,
726.345,0.07,
726.674,0.07,
727.002,0.07,
727.33,0.07,
727.659,0.07,
727.987,0.07,
728.315,0.07,
728.643,0.07,
728.971,0.07,
729.299,0.07,
729.627,0.07,
729.955,0.07,
730.283,0.07,
730.611,0.07,
730.938,0.07,
731.266,0.07,
731.594,0.07,
731.921,0.07,
732.249,0.07,
732.576,0.07,
732.904,0.07,
733.231,0.07,
733.558,0.07,
733.886,0.07,
734.213,0.07,
734.54,0.07,
734.867,0.07,
735.194,0.07,
735.521,0.07,
735.848,0.07,
736.175,0.07,
736.502,0.07,
736.829,0.07,
737.155,0.07,
737.482,0.07,
737.809,0.07,
738.135,0.07,
738.462,0.07,
738.788,0.07,
739.115,0.07,
739.441,0.07,
739.767,0.07,
740.093,0.07,
740.42,0.07,
740.746,0.07,
741.072,0.07,
741.398,0.07,
741.724,0.07,
742.05,0.07,
742.376,0.07,
742.701,0.07,
743.027,0.07,
743.353,0.07,
743.679,0.07,
744.004,0.07,
744.33,0.07,
744.655,0.07,
744.981,0.07,
745.306,0.07,
745.631,0.07,
745.957,0.07,
746.282,0.07,
746.607,0.07,
746.932,0.07,
747.257,0.07,
747.582,0.07,
747.907,0.07,
748.232,0.07,
748.557,0.07,
748.881,0.07,
749.206,0.07,
749.531,0.07,
749.855,0.07,
750.18,0.07,
750.505,0.07,
750.829,0.07,
751.153,0.07,
751.478,0.07,
751.802,0.07,
752.126,0.07,
752.45,0.07,
752.775,0.07,
753.099,0.07,
753.423,0.07,
753.747,0.07,
754.07,0.07,
754.394,0.07,
754.718,0.07,
755.042,0.07,
755.366,0.07,
755.689,0.07,
756.013,0.07,
756.336,0.07,
756.66,0.07,
756.983,0.07,
757.307,0.07,
757.63,0.07,
757.953,0.07,
758.276,0.07,
758.599,0.07,
758.922,0.07,
759.245,0.07,
759.568,0.07,
759.891,0.07,
760.214,0.07,
760.537,0.07,
760.86,0.07,
761.183,0.07,
761.505,0.07,
761.828,0.07,
762.15,0.07,
762.473,0.07,
762.795,0.07,
763.118,0.07,
763.44,0.06,
763.762,0.07,
764.084,0.07,
764.407,0.07,
764.729,0.07,
765.051,0.07,
765.373,0.06,
765.695,0.06,
766.016,0.06,
766.338,0.06,
766.66,0.06,
766.982,0.07,
767.303,0.07,
767.625,0.07,
767.947,0.07,
768.268,0.07,
768.589,0.06,
768.911,0.07,
769.232,0.07,
769.553,0.07,
769.875,0.07,
770.196,0.07,
770.517,0.07,
770.838,0.06,
771.159,0.07,
771.48,0.07,
771.801,0.07,
772.122,0.06,
772.442,0.07,
772.763,0.07,
773.084,0.07,
773.404,0.07,
773.725,0.06,
774.045,0.06,
774.366,0.07,
774.686,0.06,
775.007,0.06,
775.327,0.06,
775.647,0.06,
775.967,0.06,
776.287,0.06,
776.607,0.07,
776.927,0.06,
777.247,0.07,
777.567,0.06,
777.887,0.06,
778.207,0.06,
778.527,0.06,
778.846,0.06,
779.166,0.07,
779.485,0.06,
779.805,0.06,
780.124,0.07,
780.444,0.06,
780.763,0.06,
781.082,0.06,
781.402,0.06,
781.721,0.06,
782.04,0.06,
782.359,0.06,
782.678,0.06,
782.997,0.06,
783.316,0.06,
783.635,0.07,
783.953,0.07,
784.272,0.07,
784.591,0.06,
784.909,0.06,
785.228,0.06,
785.546,0.06,
785.865,0.07,
786.183,0.06,
786.501,0.06,
786.82,0.06,
787.138,0.06,
787.456,0.06,
787.774,0.06,
788.092,0.07,
788.41,0.06,
788.728,0.06,
789.046,0.06,
789.364,0.06,
789.682,0.06,
789.999,0.06,
790.317,0.06,
790.635,0.06,
790.952,0.06,
791.27,0.06,
791.587,0.06,
791.905,0.06,
792.222,0.06,
792.539,0.06,
792.856,0.06,
793.173,0.06,
793.491,0.06,
793.808,0.06,
794.125,0.06,
794.442,0.06,
794.758,0.06,
795.075,0.06,
795.392,0.07,
795.709,0.06,
796.025,0.07,
796.342,0.06,
796.658,0.06,
796.975,0.06,
797.291,0.06,
797.608,0.06,
797.924,0.06,
798.24,0.06,
798.557,0.06,
798.873,0.06,
799.189,0.06,
799.505,0.07,
799.821,0.06,
800.137,0.06,
800.453,0.06,
800.768,0.06,
801.084,0.06,
801.4,0.06,
801.715,0.06,
802.031,0.06,
802.347,0.06,
802.662,0.06,
802.977,0.06,
803.293,0.06,
803.608,0.06,
803.923,0.06,
804.238,0.06,
804.554,0.06,
804.869,0.06,
805.184,0.06,
805.499,0.06,
805.814,0.06,
806.128,0.06,
806.443,0.06,
806.758,0.06,
807.073,0.06,
807.387,0.06,
807.702,0.06,
808.016,0.06,
808.331,0.06,
808.645,0.06,
808.959,0.06,
809.274,0.06,
809.588,0.06,
809.902,0.06,
810.216,0.06,
810.53,0.06,
810.844,0.06,
811.158,0.06,
811.472,0.06,
811.786,0.06,
812.1,0.06,
812.413,0.06,
812.727,0.06,
813.041,0.06,
813.354,0.06,
813.668,0.06,
813.981,0.06,
814.294,0.06,
814.608,0.06,
814.921,0.06,
815.234,0.06,
815.547,0.06,
815.86,0.06,
816.173,0.07,
816.486,0.06,
816.799,0.06,
817.112,0.06,
817.425,0.06,
817.738,0.06,
818.05,0.05,
818.363,0.06,
818.676,0.06,
818.988,0.06,
819.301,0.06,
819.613,0.06,
819.925,0.06,
820.238,0.06,
820.55,0.05,
820.862,0.06,
821.174,0.06,
821.486,0.06,
821.798,0.06,
822.11,0.06,
822.422,0.06,
822.734,0.06,
823.046,0.06,
823.357,0.06,
823.669,0.06,
823.981,0.06,
824.292,0.06,
824.604,0.06,
824.915,0.06,
825.226,0.06,
825.538,0.06,
825.849,0.06,
826.16,0.06,
826.471,0.06,
826.782,0.06,
827.093,0.06,
827.404,0.06,
827.715,0.06,
828.026,0.06,
828.337,0.05,
828.648,0.06,
828.958,0.06,
829.269,0.06,
829.58,0.05,
829.89,0.06,
830.2,0.06,
830.511,0.06,
830.821,0.06,
831.131,0.06,
831.442,0.06,
831.752,0.06,
832.062,0.05,
832.372,0.06,
832.682,0.06,
832.992,0.06,
833.302,0.06,
833.612,0.06,
833.921,0.06,
834.231,0.05,
834.541,0.06,
834.85,0.06,
835.16,0.06,
835.469,0.05,
835.779,0.05,
836.088,0.06,
836.397,0.06,
836.707,0.06,
837.016,0.06,
837.325,0.05,
837.634,0.06,
837.943,0.06,
838.252,0.06,
838.561,0.06,
838.87,0.05,
839.178,0.06,
839.487,0.05,
839.796,0.06,
840.104,0.06,
840.413,0.05,
840.721,0.06,
841.03,0.06,
841.338,0.06,
841.647,0.06,
841.955,0.06,
842.263,0.06,
842.571,0.05,
842.879,0.05,
843.187,0.06,
843.495,0.05,
843.803,0.05,
844.111,0.05,
844.419,0.06,
844.726,0.05,
845.034,0.06,
845.342,0.06,
845.649,0.05,
845.957,0.06,
846.264,0.06,
846.572,0.06,
846.879,0.06,
847.186,0.06,
847.493,0.06,
847.801,0.06,
848.108,0.06,
848.415,0.06,
848.722,0.06,
849.029,0.06,
849.335,0.06,
849.642,0.06,
849.949,0.06,
850.256,0.06,
850.562,0.05,
850.869,0.06,
851.175,0.05,
851.482,0.06,
851.788,0.06,
852.095,0.05,
852.401,0.06,
852.707,0.05,
853.013,0.06,
853.319,0.06,
853.625,0.06,
853.931,0.06,
854.237,0.05,
854.543,0.06,
854.849,0.05,
855.155,0.05,
855.46,0.05,
855.766,0.05,
856.072,0.06,
856.377,0.05,
856.683,0.06,
856.988,0.05,
857.293,0.05,
857.599,0.05,
857.904,0.06,
858.209,0.06,
858.514,0.05,
858.819,0.05,
859.124,0.06,
859.429,0.05,
859.734,0.06,
860.039,0.05,
860.343,0.05,
860.648,0.05,
860.953,0.05,
861.257,0.05,
861.562,0.05,
861.866,0.05,
862.171,0.06,
862.475,0.05,
862.779,0.05,
863.084,0.05,
863.388,0.05,
863.692,0.05,
863.996,0.05,
864.3,0.06,
864.604,0.05,
864.908,0.05,
865.211,0.05,
865.515,0.05,
865.819,0.05,
866.123,0.05,
866.426,0.05,
866.73,0.05,
867.033,0.05,
867.336,0.05,
867.64,0.05,
867.943,0.05,
868.246,0.05,
868.549,0.05,
868.853,0.05,
869.156,0.04,
869.459,0.05,
869.762,0.05,
870.064,0.05,
870.367,0.05,
870.67,0.05,
870.973,0.06,
871.275,0.05,
871.578,0.05,
871.88,0.05,
872.183,0.05,
872.485,0.05,
872.787,0.05,
873.09,0.05,
873.392,0.06,
873.694,0.05,
873.996,0.05,
874.298,0.05,
874.6,0.05,
874.902,0.05,
875.204,0.05,
875.506,0.05,
875.808,0.05,
876.109,0.05,
876.411,0.05,
876.712,0.05,
877.014,0.05,
877.315,0.05,
877.617,0.05,
877.918,0.05,
878.219,0.05,
878.521,0.05,
878.822,0.05,
879.123,0.06,
879.424,0.05,
879.725,0.06,
880.026,0.05,
880.326,0.05,
880.627,0.05,
880.928,0.06,
881.229,0.05,
881.529,0.05,
881.83,0.05,
882.13,0.05,
882.431,0.05,
882.731,0.05,
883.031,0.05,
883.332,0.05,
883.632,0.05,
883.932,0.05,
884.232,0.05,
884.532,0.05,
884.832,0.05,
885.132,0.05,
885.432,0.05,
885.732,0.05,
886.031,0.05,
886.331,0.05,
886.63,0.05,
886.93,0.05,
887.229,0.06,
887.529,0.05,
887.828,0.05,
888.128,0.05,
888.427,0.04,
888.726,0.05,
889.025,0.05,
889.324,0.05,
889.623,0.05,
889.922,0.05,
890.221,0.05,
890.52,0.05,
890.818,0.05,
891.117,0.05,
891.416,0.04,
891.714,0.05,
892.013,0.05,
892.311,0.05,
892.61,0.05,
892.908,0.05,
893.206,0.05,
893.505,0.05,
893.803,0.05,
894.101,0.05,
894.399,0.05,
894.697,0.05,
894.995,0.04,
895.293,0.05,
895.59,0.05,
895.888,0.05,
896.186,0.05,
896.483,0.05,
896.781,0.05,
897.078,0.05,
897.376,0.05,
897.673,0.05,
897.971,0.05,
898.268,0.05,
898.565,0.04,
898.862,0.04,
899.159,0.04,
899.456,0.04,
899.753,0.04,
900.05,0.05,
900.347,0.04,
900.644,0.04,
900.94,0.05,
901.237,0.05,
901.534,0.05,
901.83,0.05,
902.126,0.05,
902.423,0.05,
902.719,0.04,
903.016,0.05,
903.312,0.05,
903.608,0.05,
903.904,0.05,
904.2,0.05,
904.496,0.05,
904.792,0.05,
905.088,0.05,
905.384,0.05,
905.679,0.05,
905.975,0.05,
906.271,0.05,
906.566,0.05,
906.862,0.05,
907.157,0.05,
907.452,0.05,
907.748,0.05,
908.043,0.05,
908.338,0.05,
908.633,0.04,
908.928,0.05,
909.223,0.05,
909.518,0.04,
909.813,0.05,
910.108,0.05,
910.403,0.04,
910.698,0.05,
910.992,0.04,
911.287,0.05,
911.581,0.04,
911.876,0.05,
912.17,0.05,
912.465,0.05,
912.759,0.04,
913.053,0.04,
913.347,0.04,
913.641,0.04,
913.935,0.04,
914.229,0.04,
914.523,0.04,
914.817,0.04,
915.111,0.04,
915.405,0.04,
915.698,0.04,
915.992,0.05,
916.285,0.05,
916.579,0.04,
916.872,0.05,
917.166,0.05,
917.459,0.05,
917.752,0.04,
918.045,0.04,
918.338,0.04,
918.632,0.05,
918.925,0.05,
919.217,0.05,
919.51,0.05,
919.803,0.05,
920.096,0.05,
920.389,0.04,
920.681,0.04,
920.974,0.04,
921.266,0.04,
921.559,0.05,
921.851,0.04,
922.143,0.04,
922.436,0.04,
922.728,0.05,
923.02,0.04,
923.312,0.04,
923.604,0.04,
923.896,0.05,
924.188,0.04,
924.48,0.04,
924.772,0.05,
925.063,0.04,
925.355,0.04,
925.647,0.04,
925.938,0.04,
926.23,0.04,
926.521,0.04,
926.812,0.04,
927.104,0.04,
927.395,0.04,
927.686,0.04,
927.977,0.04,
928.268,0.04,
928.559,0.04,
928.85,0.04,
929.141,0.04,
929.432,0.04,
929.722,0.04,
930.013,0.03,
930.304,0.04,
930.594,0.03,
930.885,0.04,
931.175,0.03,
931.465,0.04,
931.756,0.04,
932.046,0.04,
932.336,0.04,
932.626,0.04,
932.916,0.04,
933.206,0.04,
933.496,0.04,
933.786,0.03,
934.076,0.03,
934.365,0.03,
934.655,0.03,
934.945,0.04,
935.234,0.03,
935.524,0.04,
935.813,0.04,
936.103,0.04,
936.392,0.03,
936.681,0.03,
936.97,0.04,
937.259,0.04,
937.548,0.04,
937.837,0.03,
938.126,0.03,
938.415,0.03,
938.704,0.04,
938.993,0.03,
939.281,0.05,
939.57,0.02,
939.859,0.05,
940.147,0.04,
940.436,0.04,
940.724,0.04,
941.012,0.04,
941.301,0.03,
941.589,0.03,
941.877,0.03,
942.165,0.04,
942.453,0.03,
942.741,0.03,
943.029,0.04,
943.316,0.04,
943.604,0.03,
943.892,0.03,
944.18,0.03,
944.467,0.03,
944.755,0.05,
945.042,0.03,
945.329,0.04,
945.617,0.04,
945.904,0.03,
946.191,0.02,
946.478,0.02,
946.765,0.04,
947.052,0.04,
947.339,0.03,
947.626,0.04,
947.913,0.04,
948.2,0.03,
948.486,0.05,
948.773,0.04,
949.06,0.02,
949.346,0.04,
949.633,0.03,
949.919,0.03,
950.205,0.03,
950.492,0.03,
950.778,0.02,
951.064,0.04,
951.35,0.03,
951.636,0.03,
951.922,0.02,
952.208,0.02,
952.494,0.04,
952.779,0.03,
953.065,0.02,
953.351,0.03,
953.636,0.03,
953.922,0.01,
954.207,0.02,
954.492,0.03,
954.778,0.04,
955.063,0.02,
955.348,0.04,
955.633,0.03,
955.918,0.04,
956.203,0.03,
956.488,0.02,
956.773,0.03,
957.058,0.03,
957.343,0.03,
957.627,0.03,
957.912,0.04,
958.197,0.03,
958.481,0.02,
958.766,0.03,
959.05,0.02,
959.334,0.02,
959.619,0.03,
959.903,0.02,
960.187,0.04,
960.471,0.04,
960.755,0.03,
961.039,0.02,
961.323,0.02,
961.606,0.01,
961.89,0.02,
962.174,0.02,
962.457,0,
962.741,0.01,
963.025,0.03,
963.308,0.04,
963.591,0.02,
963.875,0.03,
964.158,0.03,
964.441,0.02,
964.724,0.03,
965.007,0.04,
965.29,0.02,
965.573,0.03,
965.856,0.04,
966.139,0.03,
966.421,0.03,
966.704,0.02,
966.987,0.03,
967.269,0.04,
967.552,0.02,
967.834,0.03,
968.117,0.04,
968.399,0.02,
968.681,0.05,
968.963,0.02,
969.245,0.02,
969.527,0.02,
969.809,0.02,
970.091,0,
970.373,0.03,
970.655,0.04,
970.937,0.02,
971.218,0.02,
971.5,0.04,
971.781,0.07,
972.063,0.04,
972.344,0.06,
972.626,0.02,
972.907,0.04,
973.188,0.07,
973.469,0.03,
973.75,0,
974.031,0.02,
974.312,0.01,
974.593,0.02,
974.874,-0.01,
975.155,0.01,
975.435,0.01,
975.716,0.02,
975.997,0.02,
976.277,0.01,
976.558,0.02,
976.838,0,
977.118,0.04,
977.399,0.04,
977.679,0.02,
977.959,0.05,
978.239,0.05,
978.519,0.03,
978.799,0.03,
979.079,0.03,
979.359,0.02,
979.638,0.04,
979.918,0.02,
980.198,-0.02,
980.477,0.03,
980.757,0.06,
981.036,0.05,
981.315,0.02,
981.595,0.03,
981.874,0.06,
982.153,0.05,
982.432,0.04,
982.711,0,
982.99,0.02,
983.269,-0.01,
983.548,-0.02,
983.827,0.04,
984.105,0.02,
984.384,-0.03,
984.663,-0.02,
984.941,0.07,
985.22,0.02,
985.498,0,
985.776,-0.03,
986.055,0,
986.333,0.1,
986.611,-0.01,
986.889,0.03,
987.167,-0.02,
987.445,-0.01,
987.723,-0.01,
988.001,0.09,
988.279,0.07,
988.556,0.04,
988.834,0.06,
989.112,0.01,
989.389,0.16,
989.666,0.05,
989.944,-0.06,
990.221,0.04,
990.498,-0.02,
990.776,0.01,
991.053,0.02,
991.33,-0.01,
991.607,0.04,
991.884,-0.11,
992.161,-0.01,
992.437,-0.02,
992.714,0.03,
992.991,0.03,
993.267,-0.12,
993.544,0.02,
993.82,0.12,
994.097,0.15,
994.373,0.04,
994.649,0.03,
994.926,0.03,
995.202,-0.05,
995.478,-0.06,
995.754,0.06,
996.03,-0.06,
996.306,0,
996.582,0.07,
996.857,-0.03,
997.133,-0.1,
997.409,0.06,
997.684,-0.08,
997.96,-0.02,
998.235,-0.04,
998.511,0.06,
998.786,0.1,
999.061,-0.04,
999.336,0.19,
999.611,0.09,
999.886,0.21,
1000.161,0.07,
1000.436,-0.03,
1000.711,0.13,
1000.986,-0.04,
1001.261,0.04,
1001.535,0.06,
1001.81,0,
1002.085,-0.01,
1002.359,0.12,
1002.633,0.11,
1002.908,-0.07,
1003.182,0.01,
1003.456,-0.11,
1003.73,-0.02,
1004.004,0.03,
1004.278,-0.02,
1004.552,0.18,
1004.826,-0.05,
1005.1,-0.08,
1005.374,-0.01,
1005.648,0.05,
1005.921,-0.07,
1006.195,0.1,
1006.468,0.14,
1006.742,-0.14,
1007.015,0.28,
1007.288,-0.05,
1007.562,0.2,
1007.835,-0.11,
1008.108,0.09,
1008.381,-0.07,
1008.654,-0.03,
1008.927,0.03,
1009.2,0.04,
1009.472,0.04,
1009.745,0.06,
1010.018,-0.01,
1010.29,0.18,
1010.563,0.09,
1010.835,-0.03,
1011.108,-0.03,
1011.38,0.03,
1011.652,0.13,
1011.924,0.24,
1012.197,0,
1012.469,0.04,
1012.741,-0.04,
1013.013,-0.13,
1013.284,0.07,
1013.556,0.14,
1013.828,0.12,
1014.1,0.02,
1014.371,0.13,
1014.643,0.1,
1014.914,-0.12,
1015.186,-0.12,
1015.457,-0.12,
340.712,,18.59
341.091,,18.59
341.47,,18.59
341.849,,-27.48
342.229,,-4.2
342.608,,2.67
342.987,,-4.93
343.366,,-4.44
343.745,,-14.74
344.124,,-17.92
344.503,,15.65
344.881,,2.91
345.26,,-3.46
345.639,,-3.22
346.018,,3.65
346.396,,19.33
346.775,,9.77
347.154,,5.61
347.532,,-37.28
347.911,,17.37
348.289,,9.04
348.668,,7.81
349.046,,3.89
349.425,,-8.12
349.803,,-4.93
350.181,,1.93
350.56,,-12.04
350.938,,10.75
351.316,,4.38
351.694,,15.9
352.072,,17.86
352.45,,-18.9
352.828,,-0.52
353.206,,0.95
353.584,,14.43
353.962,,4.63
354.34,,-21.84
354.718,,-4.2
355.095,,17.86
355.473,,1.93
355.851,,12.96
356.229,,9.53
356.606,,-4.93
356.984,,15.65
357.361,,-23.31
357.739,,-4.44
358.116,,-4.44
358.494,,26.93
358.871,,18.1
359.248,,30.85
359.626,,-49.54
360.003,,-0.52
360.38,,20.31
360.757,,-44.88
361.134,,2.18
361.511,,-12.53
361.888,,27.42
362.265,,9.53
362.642,,-14.49
363.019,,-23.56
363.396,,-47.08
363.773,,-9.59
364.15,,48.49
364.527,,7.81
364.903,,-17.19
365.28,,22.27
365.657,,-1.99
366.033,,-4.93
366.41,,25.46
366.786,,-32.14
367.163,,7.81
367.539,,-19.64
367.915,,-4.44
368.292,,-20.13
368.668,,0.7
369.044,,-9.1
369.421,,18.35
369.797,,-25.03
370.173,,12.47
370.549,,-235.3
370.925,,-24.05
371.301,,0.46
371.677,,-11.06
372.053,,19.09
372.429,,-2.48
372.805,,3.89
373.181,,3.65
373.556,,15.9
373.932,,-31.89
374.308,,-39.73
374.683,,-2.73
375.059,,-26.74
375.435,,37.22
375.81,,-9.83
376.186,,-0.77
376.561,,-10.81
376.936,,12.47
377.312,,-6.16
377.687,,25.7
378.062,,9.04
378.438,,17.61
378.813,,-10.08
379.188,,7.32
379.563,,29.13
379.938,,-32.14
380.313,,-27.97
380.688,,8.79
381.063,,25.7
381.438,,23.25
381.813,,0.21
382.188,,-5.42
382.563,,4.14
382.937,,14.67
383.312,,-7.14
383.687,,18.1
384.061,,-1.75
384.436,,-7.38
384.81,,16.63
385.185,,-26.74
385.559,,-30.91
385.934,,19.82
386.308,,-7.87
386.682,,-21.35
387.057,,-13.26
387.431,,-32.14
387.805,,-29.68
388.179,,-1.5
388.553,,-10.32
388.927,,-6.65
389.301,,-35.81
389.675,,7.57
390.049,,-16.45
390.423,,-8.12
390.797,,-22.58
391.171,,16.88
391.545,,20.31
391.919,,-4.69
392.292,,-7.14
392.666,,-11.55
393.04,,3.4
393.413,,-1.5
393.787,,3.89
394.16,,14.92
394.534,,5.12
394.907,,29.13
395.28,,28.64
395.654,,24.23
396.027,,10.26
396.4,,28.89
396.773,,-4.2
397.147,,36.24
397.52,,1.44
397.893,,-12.04
398.266,,-23.56
398.639,,1.19
399.012,,-7.14
399.385,,-3.95
399.757,,20.56
400.13,,-4.2
400.503,,-1.01
400.876,,-3.46
401.248,,-12.04
401.621,,26.68
401.994,,-14.98
402.366,,2.67
402.739,,23.74
403.111,,19.33
403.484,,13.69
403.856,,37.71
404.229,,-8.61
404.601,,0.7
404.973,,17.61
405.345,,-24.54
405.718,,-13.75
406.09,,14.67
406.462,,-23.07
406.834,,4.14
407.206,,-32.87
407.578,,-11.79
407.95,,13.45
408.322,,-11.79
408.693,,-4.93
409.065,,12.22
409.437,,-10.81
409.809,,-3.22
410.18,,6.59
410.552,,29.87
410.924,,36.24
411.295,,-8.85
411.667,,13.45
412.038,,-23.8
412.41,,7.32
412.781,,6.1
413.152,,34.28
413.524,,16.88
413.895,,14.92
414.266,,-0.52
414.637,,7.32
415.008,,-25.76
415.38,,9.77
415.751,,17.61
416.122,,21.54
416.493,,-1.01
416.863,,-9.83
417.234,,9.04
417.605,,7.32
417.976,,11.49
418.347,,-6.65
418.717,,-2.97
419.088,,-16.45
419.459,,10.51
419.829,,-29.68
420.2,,19.33
420.57,,4.38
420.941,,-16.21
421.311,,-22.33
421.682,,-2.24
422.052,,-9.83
422.422,,-10.81
422.792,,-9.59
423.163,,-14.24
423.533,,-14.24
423.903,,-8.85
424.273,,26.19
424.643,,-7.38
425.013,,-3.95
425.383,,-26.74
425.753,,-19.15
426.123,,-23.31
426.492,,-21.11
426.862,,-3.46
427.232,,-30.91
427.602,,-18.17
427.971,,-5.18
428.341,,-3.46
428.71,,12.47
429.08,,-2.24
429.449,,23.01
429.819,,11.49
430.188,,27.42
430.557,,-16.94
430.927,,29.87
431.296,,18.1
431.665,,-1.99
432.034,,14.92
432.403,,15.9
432.772,,-26.5
433.142,,-11.79
433.51,,4.87
433.879,,1.93
434.248,,-13.51
434.617,,-46.84
434.986,,-15.23
435.355,,4.14
435.724,,-4.93
436.092,,-0.28
436.461,,6.83
436.829,,0.7
437.198,,0.95
437.567,,-27.48
437.935,,23.01
438.303,,38.45
438.672,,8.06
439.04,,1.19
439.408,,-27.48
439.777,,4.14
440.145,,-3.22
440.513,,13.45
440.881,,-6.4
441.249,,6.1
441.617,,7.08
441.985,,-12.77
442.353,,-9.59
442.721,,0.21
443.089,,10.26
443.457,,15.65
443.825,,24.72
444.192,,2.67
444.56,,12.96
444.928,,-26.74
445.295,,-1.75
445.663,,3.89
446.03,,7.08
446.398,,-27.72
446.765,,60.01
447.133,,-36.06
447.5,,-27.72
447.867,,15.65
448.235,,-10.32
448.602,,8.55
448.969,,-18.9
449.336,,30.85
449.703,,-19.64
450.07,,46.04
450.437,,28.89
450.804,,51.43
451.171,,86.73
451.538,,113.44
451.905,,106.82
452.271,,114.42
452.638,,105.6
453.005,,119.57
453.372,,92.61
453.738,,93.34
454.105,,103.88
454.471,,99.96
454.838,,123.24
455.204,,65.65
455.57,,106.33
455.937,,85.99
456.303,,139.42
456.669,,68.1
457.036,,115.4
457.402,,57.32
457.768,,62.95
458.134,,84.52
458.5,,67.61
458.866,,55.85
459.232,,98
459.598,,49.72
459.964,,25.46
460.329,,47.76
460.695,,71.53
461.061,,49.96
461.427,,44.33
461.792,,60.26
462.158,,29.87
462.523,,57.32
462.889,,87.22
463.254,,48.98
463.62,,48.49
463.985,,78.39
464.35,,92.36
464.716,,54.87
465.081,,112.7
465.446,,65.89
465.811,,72.76
466.176,,84.27
466.541,,70.55
466.906,,93.34
467.271,,70.8
467.636,,49.72
468.001,,31.83
468.366,,63.44
468.731,,70.31
469.096,,37.71
469.46,,48.98
469.825,,73.98
470.19,,87.71
470.554,,61.48
470.919,,42.61
471.283,,30.36
471.648,,58.79
472.012,,73.98
472.376,,52.66
472.741,,79.37
473.105,,97.51
473.469,,54.87
473.833,,22.27
474.197,,49.47
474.561,,62.46
474.925,,20.56
475.289,,55.11
475.653,,66.87
476.017,,86.48
476.381,,75.94
476.745,,74.47
477.109,,50.94
477.472,,117.85
477.836,,90.4
478.2,,87.71
478.563,,65.89
478.927,,92.12
479.29,,98.98
479.654,,122.75
480.017,,107.31
480.381,,106.58
480.744,,102.41
481.107,,128.39
481.471,,135.98
481.834,,102.16
482.197,,149.95
482.56,,156.08
482.923,,155.59
483.286,,196.27
483.649,,177.89
484.012,,203.13
484.375,,223.72
484.738,,243.33
485.1,,193.33
485.463,,267.34
485.826,,285.48
486.188,,295.04
486.551,,321.51
486.914,,356.06
487.276,,371.99
487.639,,378.85
488.001,,423.95
488.363,,456.05
488.726,,508.5
489.088,,501.88
489.45,,539.13
489.812,,605.55
490.175,,657.26
490.537,,709.7
490.899,,784.69
491.261,,897.67
491.623,,946.69
491.985,,1018.49
492.347,,1123.87
492.708,,1198.62
493.07,,1318.95
493.432,,1379.73
493.794,,1518.44
494.155,,1649.07
494.517,,1807.87
494.879,,1967.91
495.24,,2119.36
495.602,,2306.6
495.963,,2506.82
496.324,,2743.07
496.686,,2920.02
497.047,,3135.43
497.408,,3348.89
497.769,,3686.85
498.131,,3900.55
498.492,,4095.14
498.853,,4354.67
499.214,,4706.6
499.575,,4972.75
499.936,,5214.63
500.297,,5603.57
500.658,,5929.27
501.018,,6206.69
501.379,,6698.31
501.74,,6934.8
502.1,,7254.87
502.461,,7606.3
502.822,,7952.1
503.182,,8272.41
503.543,,8613.06
503.903,,8899.31
504.263,,9123.31
504.624,,9425.24
504.984,,9635.51
505.344,,9846.03
505.705,,10179.57
506.065,,10381.76
506.425,,10466.31
506.785,,10577.08
507.145,,10666.78
507.505,,10778.04
507.865,,10892.73
508.225,,10960.62
508.585,,10815.78
508.944,,10857.2
509.304,,10773.14
509.664,,10692.26
510.023,,10587.86
510.383,,10466.8
510.743,,10347.2
511.102,,10258.73
511.462,,10069.53
511.821,,9988.41
512.18,,9847.99
512.54,,9523.02
512.899,,9314.71
513.258,,8991.95
513.618,,8852.01
513.977,,8632.18
514.336,,8351.33
514.695,,8102.09
515.054,,7881.28
515.413,,7551.16
515.772,,7416.37
516.131,,7108.31
516.49,,6861.53
516.848,,6644.15
517.207,,6422.11
517.566,,6339.03
517.924,,6080.97
518.283,,5865.55
518.642,,5717.03
519,,5483.48
519.359,,5414.37
519.717,,5108.27
520.075,,4986.72
520.434,,4877.41
520.792,,4658.07
521.15,,4526.71
521.508,,4438.73
521.867,,4270.86
522.225,,4100.04
522.583,,3900.55
522.941,,3820.66
523.299,,3728.76
523.657,,3637.83
524.014,,3465.3
524.372,,3325.12
524.73,,3214.1
525.088,,3128.57
525.445,,3044.76
525.803,,2948.2
526.161,,2866.59
526.518,,2721.26
526.876,,2715.87
527.233,,2604.36
527.591,,2605.59
527.948,,2450.95
528.305,,2373.5
528.662,,2351.94
529.02,,2190.19
529.377,,2135.05
529.734,,2049.76
530.091,,1950.02
530.448,,1876.74
530.805,,1855.42
531.162,,1770.62
531.519,,1675.78
531.876,,1648.33
532.233,,1592.21
532.589,,1532.41
532.946,,1471.39
533.303,,1423.35
533.659,,1384.88
534.016,,1323.61
534.372,,1271.41
534.729,,1196.42
535.085,,1133.19
535.442,,1115.05
535.798,,1055.5
536.154,,1018.98
536.511,,943.26
536.867,,881.25
537.223,,873.65
537.579,,862.38
537.935,,809.69
538.291,,795.48
538.647,,742.79
539.003,,756.76
539.359,,665.59
539.715,,650.64
540.07,,646.47
540.426,,614.37
540.782,,591.58
541.137,,558
541.493,,537.66
541.849,,518.3
542.204,,472.96
542.56,,490.85
542.915,,457.03
543.27,,443.55
543.626,,402.13
543.981,,403.85
544.336,,358.51
544.691,,350.18
545.046,,390.86
545.401,,321.02
545.756,,326.41
546.111,,295.28
546.466,,320.03
546.821,,319.05
547.176,,282.78
547.531,,309.74
547.886,,249.94
548.24,,243.82
548.595,,219.31
548.95,,225.19
549.304,,247.74
549.659,,248.72
550.013,,219.8
550.367,,200.68
550.722,,163.68
551.076,,201.42
551.43,,200.93
551.785,,169.31
552.139,,132.55
552.493,,158.29
552.847,,142.85
553.201,,160
553.555,,136.97
553.909,,115.64
554.263,,136.23
554.617,,145.05
554.971,,121.77
555.324,,118.09
555.678,,102.41
556.032,,105.11
556.385,,118.83
556.739,,62.46
557.092,,104.37
557.446,,66.63
557.799,,87.22
558.153,,96.53
558.506,,87.46
558.859,,66.87
559.212,,98.24
559.566,,70.31
559.919,,55.6
560.272,,73.98
560.625,,58.3
560.978,,50.45
561.331,,77.66
561.684,,43.35
562.037,,63.44
562.389,,32.07
562.742,,65.89
563.095,,51.92
563.448,,59.77
563.8,,54.87
564.153,,45.8
564.505,,72.76
564.858,,13.94
565.21,,81.09
565.562,,56.58
565.915,,56.34
566.267,,30.6
566.619,,50.7
566.972,,23.25
567.324,,39.67
567.676,,63.2
568.028,,42.37
568.38,,39.43
568.732,,15.41
569.084,,48.74
569.435,,65.89
569.787,,56.58
570.139,,25.46
570.491,,28.89
570.842,,37.96
571.194,,17.37
571.546,,47.27
571.897,,36
572.249,,6.59
572.6,,64.91
572.951,,47.02
573.303,,25.46
573.654,,25.7
574.005,,19.09
574.356,,4.87
574.707,,11.49
575.059,,27.17
575.41,,33.05
575.761,,10.75
576.112,,50.21
576.462,,30.6
576.813,,29.38
577.164,,8.3
577.515,,13.2
577.865,,-2.73
578.216,,21.78
578.567,,-2.48
578.917,,30.11
579.268,,-2.73
579.618,,-5.91
579.969,,-14.74
580.319,,9.28
580.669,,11.49
581.02,,1.19
581.37,,13.2
581.72,,22.03
582.07,,-25.03
582.42,,3.89
582.77,,47.27
583.12,,20.31
583.47,,-6.16
583.82,,4.38
584.17,,18.1
584.52,,16.14
584.869,,-4.69
585.219,,16.39
585.569,,-22.82
585.918,,28.15
586.268,,27.91
586.617,,5.36
586.967,,-26.99
587.316,,31.83
587.666,,16.88
588.015,,34.52
588.364,,36
588.713,,-13.51
589.062,,46.04
589.412,,13.94
589.761,,-4.2
590.11,,-9.34
590.459,,5.61
590.807,,26.68
591.156,,7.57
591.505,,-9.59
591.854,,6.1
592.203,,15.9
592.551,,21.29
592.9,,37.47
593.248,,13.94
593.597,,21.05
593.945,,-1.26
594.294,,17.37
594.642,,-5.18
594.991,,2.42
595.339,,1.19
595.687,,25.7
596.035,,30.6
596.383,,10.26
596.732,,33.05
597.08,,3.4
597.428,,17.61
597.775,,1.44
598.123,,36.73
598.471,,-2.48
598.819,,14.92
599.167,,13.69
599.514,,27.91
599.862,,-1.01
600.21,,13.2
600.557,,17.12
600.905,,27.91
601.252,,-6.16
601.6,,16.63
601.947,,36.73
602.294,,13.45
602.641,,5.12
602.989,,-5.91
603.336,,-19.15
603.683,,25.7
604.03,,11.49
604.377,,25.95
604.724,,16.39
605.071,,31.83
605.418,,42.86
605.765,,-30.91
606.111,,-6.89
606.458,,11
606.805,,7.81
607.151,,20.07
607.498,,-9.59
607.844,,22.03
608.191,,-10.32
608.537,,15.16
608.884,,6.1
609.23,,-7.38
609.576,,28.89
609.922,,23.01
610.269,,-28.7
610.615,,24.48
610.961,,31.09
611.307,,3.89
611.653,,21.29
611.999,,-1.5
612.345,,20.56
612.69,,-12.04
613.036,,-3.71
613.382,,-11.06
613.728,,30.85
614.073,,18.1
614.419,,-11.3
614.764,,-2.48
615.11,,45.55
615.455,,0.95
615.801,,5.36
616.146,,36.49
616.491,,5.61
616.837,,-0.03
617.182,,15.65
617.527,,4.63
617.872,,7.08
618.217,,17.12
618.562,,-6.65
618.907,,30.11
619.252,,22.27
619.597,,-9.1
619.941,,14.67
620.286,,12.22
620.631,,16.88
620.975,,23.25
621.32,,32.56
621.665,,-8.61
622.009,,41.88
622.354,,20.07
622.698,,29.38
623.042,,9.77
623.387,,-20.62
623.731,,0.7
624.075,,23.74
624.419,,13.69
624.763,,1.68
625.107,,3.89
625.451,,-25.76
625.795,,-28.46
626.139,,26.93
626.483,,-10.81
626.827,,36.98
627.171,,12.22
627.514,,12.96
627.858,,9.53
628.201,,10.26
628.545,,7.57
628.888,,2.67
629.232,,12.71
629.575,,19.09
629.919,,-50.27
630.262,,1.19
630.605,,-10.57
630.948,,29.87
631.292,,-1.75
631.635,,11.49
631.978,,13.69
632.321,,-28.46
632.664,,23.25
633.007,,24.23
633.349,,0.21
633.692,,-3.46
634.035,,4.14
634.378,,39.92
634.72,,15.65
635.063,,2.67
635.405,,18.1
635.748,,-12.77
636.09,,1.93
636.433,,-8.36
636.775,,-1.5
637.117,,-18.9
637.46,,14.18
637.802,,-13.02
638.144,,-49.78
638.486,,35.5
638.828,,24.48
639.17,,10.26
639.512,,-15.23
639.854,,-6.65
640.196,,-4.93
640.538,,31.09
640.879,,-5.18
641.221,,-3.22
641.563,,21.05
641.904,,14.67
642.246,,-9.83
642.587,,-33.85
642.929,,11.49
643.27,,-32.38
643.611,,-20.86
643.953,,0.46
644.294,,-3.46
644.635,,4.63
644.976,,25.95
645.317,,9.04
645.658,,17.12
645.999,,-8.61
646.34,,18.35
646.681,,-14
647.022,,11
647.363,,-15.47
647.703,,17.61
648.044,,34.52
648.385,,7.32
648.725,,-0.77
649.066,,-8.12
649.406,,2.18
649.747,,11.98
650.087,,0.46
650.428,,31.09
650.768,,4.38
651.108,,8.55
651.448,,30.11
651.788,,5.36
652.128,,1.93
652.468,,-4.93
652.808,,-21.35
653.148,,15.41
653.488,,29.62
653.828,,10.26
654.168,,28.64
654.507,,23.01
654.847,,3.4
655.187,,-12.53
655.526,,-25.03
655.866,,22.27
656.205,,-8.61
656.545,,-1.01
656.884,,11.49
657.223,,15.16
657.563,,9.53
657.902,,-14.74
658.241,,29.13
658.58,,8.06
658.919,,10.26
659.258,,32.32
659.597,,-14.49
659.936,,-4.2
660.275,,3.16
660.614,,35.01
660.952,,-24.78
661.291,,11
661.63,,-37.77
661.968,,-1.26
662.307,,-5.42
662.645,,8.3
662.984,,25.46
663.322,,9.04
663.661,,-7.38
663.999,,-4.44
664.337,,-16.21
664.675,,-8.61
665.013,,3.65
665.351,,34.03
665.689,,-36.06
666.027,,-1.01
666.365,,-16.7
666.703,,2.67
667.041,,8.79
667.379,,5.12
667.717,,11.49
668.054,,23.5
668.392,,11.73
668.729,,-3.46
669.067,,-21.84
669.404,,7.32
669.742,,4.63
670.079,,-9.34
670.417,,5.61
670.754,,-17.43
671.091,,-10.81
671.428,,-2.97
671.765,,-6.65
672.102,,14.92
672.439,,21.29
672.776,,-45.37
673.113,,15.65
673.45,,6.1
673.787,,27.66
674.124,,28.4
674.46,,-24.05
674.797,,-7.63
675.134,,22.03
675.47,,14.18
675.807,,5.61
676.143,,-14
676.479,,-26.25
676.816,,33.3
677.152,,15.9
677.488,,-1.75
677.824,,-31.15
678.161,,2.91
678.497,,-5.42
678.833,,13.94
679.169,,1.44
679.505,,25.7
679.84,,15.9
680.176,,-18.17
680.512,,19.33
680.848,,-9.83
681.183,,28.89
681.519,,6.83
681.855,,16.88
682.19,,31.34
682.525,,22.52
682.861,,2.42
683.196,,30.36
683.532,,17.37
683.867,,-17.43
684.202,,-9.59
684.537,,17.12
684.872,,29.87
685.207,,43.35
685.542,,-5.67
685.877,,-1.75
686.212,,1.93
686.547,,7.81
686.882,,20.31
687.216,,14.18
687.551,,8.3
687.886,,4.87
688.22,,-26.74
688.555,,24.48
688.889,,15.9
689.224,,3.16
689.558,,-15.23
689.892,,-13.26
690.227,,24.72
690.561,,4.87
690.895,,-15.96
691.229,,4.63
691.563,,7.08
691.897,,-3.71
692.231,,11.49
692.565,,-13.75
692.899,,8.55
693.233,,2.67
693.566,,-7.63
693.9,,-33.61
694.234,,26.44
694.567,,6.83
694.901,,32.32
695.234,,-7.63
695.568,,32.56
695.901,,-47.57
696.234,,14.43
696.567,,20.07
696.901,,-8.36
697.234,,-16.45
697.567,,6.83
697.9,,12.22
698.233,,18.35
698.566,,-12.77
698.899,,23.25
699.232,,7.81
699.565,,7.81
699.897,,-2.24
700.23,,-2.48
700.563,,-11.79
700.895,,1.68
701.228,,15.65
701.56,,-22.82
701.893,,17.37
702.225,,-1.75
702.557,,1.68
702.89,,13.94
703.222,,-0.03
703.554,,13.2
703.886,,43.35
704.218,,-14.24
704.55,,24.97
704.882,,-7.87
705.214,,-2.97
705.546,,-4.44
705.878,,0.46
706.209,,23.74
706.541,,5.61
706.873,,6.83
707.204,,35.75
707.536,,18.1
707.867,,-0.03
708.199,,-20.62
708.53,,-10.32
708.861,,-32.63
709.193,,-24.54
709.524,,6.59
709.855,,-16.21
710.186,,15.16
710.517,,-12.53
710.848,,-0.28
711.179,,13.69
711.51,,3.89
711.841,,19.58
712.172,,-15.47
712.502,,-8.85
712.833,,-8.85
713.164,,-22.09
713.494,,-35.57
713.825,,-4.2
714.155,,6.34
714.486,,-5.67
714.816,,9.04
715.146,,37.22
715.476,,-8.36
715.807,,-7.87
716.137,,21.78
716.467,,12.71
716.797,,46.29
717.127,,30.11
717.457,,-8.36
717.787,,2.91
718.117,,10.51
718.446,,-15.72
718.776,,16.88
719.106,,20.8
719.435,,-8.12
719.765,,25.46
720.095,,12.22
720.424,,18.35
720.753,,13.94
721.083,,-18.41
721.412,,-10.32
721.741,,26.93
722.07,,-26.5
722.4,,-8.85
722.729,,16.88
723.058,,35.5
723.387,,-1.75
723.716,,-1.5
724.044,,0.7
724.373,,-7.38
724.702,,-21.11
725.031,,56.09
725.359,,18.59
725.688,,-23.56
726.017,,2.67
726.345,,-12.28
726.674,,-6.65
727.002,,6.1
727.33,,-2.73
727.659,,-3.46
727.987,,-19.88
728.315,,-4.69
728.643,,38.94
728.971,,-17.43
729.299,,-9.59
729.627,,10.75
729.955,,-24.78
730.283,,-9.1
730.611,,11.98
730.938,,-16.94
731.266,,-7.87
731.594,,-10.57
731.921,,13.69
732.249,,-15.72
732.576,,-16.21
732.904,,5.36
733.231,,-5.91
733.558,,5.36
733.886,,-20.37
734.213,,6.34
734.54,,-1.26
734.867,,-33.61
735.194,,-2.48
735.521,,-1.99
735.848,,-17.43
736.175,,14.67
736.502,,-3.46
736.829,,8.06
737.155,,-26.01
737.482,,9.28
737.809,,2.67
738.135,,-9.83
738.462,,-13.02
738.788,,-1.01
739.115,,11.49
739.441,,4.38
739.767,,4.14
740.093,,-21.11
740.42,,-6.89
740.746,,-18.17
741.072,,38.94
741.398,,1.44
741.724,,-25.76
742.05,,1.93
742.376,,11.73
742.701,,-20.37
743.027,,28.89
743.353,,30.85
743.679,,12.71
744.004,,-11.3
744.33,,-4.93
744.655,,48.49
744.981,,-2.97
745.306,,23.99
745.631,,-15.96
745.957,,-31.15
746.282,,17.86
746.607,,8.06
746.932,,14.92
747.257,,-12.04
747.582,,21.54
747.907,,-2.24
748.232,,-16.45
748.557,,19.58
748.881,,23.74
749.206,,11.49
749.531,,13.69
749.855,,9.28
750.18,,7.81
750.505,,-2.97
750.829,,5.12
751.153,,3.89
751.478,,2.42
751.802,,-11.3
752.126,,-22.09
752.45,,-11.3
752.775,,-11.55
753.099,,-17.92
753.423,,9.04
753.747,,-6.89
754.07,,11.24
754.394,,13.69
754.718,,5.12
755.042,,17.61
755.366,,2.42
755.689,,9.28
756.013,,-1.5
756.336,,25.46
756.66,,5.36
756.983,,-17.43
757.307,,-1.26
757.63,,23.5
757.953,,-43.9
758.276,,-0.03
758.599,,-1.01
758.922,,-16.94
759.245,,16.14
759.568,,-0.52
759.891,,-14.98
760.214,,30.11
760.537,,-21.84
760.86,,-12.53
761.183,,-31.65
761.505,,27.17
761.828,,1.68
762.15,,-11.3
762.473,,-1.5
762.795,,5.61
763.118,,9.28
763.44,,-5.91
763.762,,4.87
764.084,,-17.92
764.407,,-9.59
764.729,,5.85
765.051,,14.67
765.373,,19.33
765.695,,38.2
766.016,,28.4
766.338,,-0.03
766.66,,-5.91
766.982,,-4.44
767.303,,34.03
767.625,,-3.71
767.947,,-11.3
768.268,,-23.07
768.589,,11.24
768.911,,-1.01
769.232,,17.37
769.553,,12.47
769.875,,-26.5
770.196,,7.32
770.517,,-15.72
770.838,,-13.02
771.159,,-25.27
771.48,,12.96
771.801,,-31.89
772.122,,-19.88
772.442,,7.81
772.763,,10.75
773.084,,2.91
773.404,,-14
773.725,,14.67
774.045,,15.16
774.366,,-28.7
774.686,,11.49
775.007,,7.32
775.327,,-8.61
775.647,,11
775.967,,14.18
776.287,,-13.02
776.607,,17.37
776.927,,-27.97
777.247,,-13.51
777.567,,13.94
777.887,,12.96
778.207,,-29.19
778.527,,-22.82
778.846,,-11.06
779.166,,6.34
779.485,,4.14
779.805,,14.18
780.124,,0.7
780.444,,1.19
780.763,,-1.5
781.082,,-40.22
781.402,,-17.68
781.721,,21.78
782.04,,-43.16
782.359,,-31.89
782.678,,1.93
782.997,,6.34
783.316,,-28.95
783.635,,-1.01
783.953,,7.81
784.272,,33.79
784.591,,-8.36
784.909,,-1.26
785.228,,-26.01
785.546,,7.81
785.865,,-11.79
786.183,,0.7
786.501,,4.87
786.82,,-8.12
787.138,,49.23
787.456,,27.91
787.774,,-8.85
788.092,,-28.7
788.41,,-1.75
788.728,,-24.78
789.046,,-1.99
789.364,,23.5
789.682,,-5.18
789.999,,-7.38
790.317,,-3.46
790.635,,-20.62
790.952,,3.89
791.27,,1.93
791.587,,13.2
791.905,,9.04
792.222,,8.79
792.539,,11.24
792.856,,9.53
793.173,,0.7
793.491,,6.34
793.808,,23.25
794.125,,-28.95
794.442,,-8.36
794.758,,-1.26
795.075,,-17.19
795.392,,-13.51
795.709,,-20.86
796.025,,-7.63
796.342,,20.8
796.658,,0.46
796.975,,6.83
797.291,,9.28
797.608,,5.61
797.924,,-23.56
798.24,,2.42
798.557,,17.12
798.873,,28.15
799.189,,5.36
799.505,,26.93
799.821,,-5.42
800.137,,37.47
800.453,,-22.58
800.768,,25.95
801.084,,-12.04
801.4,,0.95
801.715,,36.73
802.031,,17.61
802.347,,14.43
802.662,,28.4
802.977,,-21.84
803.293,,-8.85
803.608,,19.82
803.923,,19.82
804.238,,-8.61
804.554,,-9.1
804.869,,-46.59
805.184,,13.2
805.499,,-21.84
805.814,,-21.35
806.128,,23.99
806.443,,17.61
806.758,,-19.39
807.073,,36
807.387,,8.79
807.702,,-23.56
808.016,,-3.46
808.331,,-8.85
808.645,,-6.4
808.959,,-5.18
809.274,,-31.65
809.588,,-8.36
809.902,,-2.73
810.216,,-14
810.53,,9.04
810.844,,2.91
811.158,,-3.22
811.472,,-3.95
811.786,,1.19
812.1,,10.02
812.413,,9.77
812.727,,-21.84
813.041,,-14.24
813.354,,16.39
813.668,,43.1
813.981,,-21.35
814.294,,-37.77
814.608,,6.1
814.921,,14.43
815.234,,31.83
815.547,,-18.17
815.86,,7.08
816.173,,-22.33
816.486,,23.99
816.799,,-14.24
817.112,,20.56
817.425,,20.31
817.738,,19.82
818.05,,12.22
818.363,,17.37
818.676,,-26.25
818.988,,9.28
819.301,,-3.46
819.613,,-1.99
819.925,,-6.16
820.238,,-22.33
820.55,,43.84
820.862,,15.9
821.174,,-11.06
821.486,,-22.82
821.798,,5.85
822.11,,7.81
822.422,,-10.57
822.734,,-10.32
823.046,,-1.75
823.357,,-7.87
823.669,,0.21
823.981,,-15.47
824.292,,-22.33
824.604,,26.19
824.915,,18.59
825.226,,14.18
825.538,,-4.44
825.849,,-4.44
826.16,,-14.98
826.471,,6.59
826.782,,4.14
827.093,,0.7
827.404,,-19.39
827.715,,8.3
828.026,,-1.5
828.337,,28.4
828.648,,24.72
828.958,,29.13
829.269,,21.05
829.58,,-2.97
829.89,,49.72
830.2,,-9.1
830.511,,-9.59
830.821,,-10.81
831.131,,22.76
831.442,,-24.54
831.752,,29.62
832.062,,-27.23
832.372,,-18.41
832.682,,-26.99
832.992,,-1.26
833.302,,15.41
833.612,,4.14
833.921,,-2.48
834.231,,23.01
834.541,,1.68
834.85,,-10.57
835.16,,11
835.469,,17.37
835.779,,11.98
836.088,,1.44
836.397,,-6.65
836.707,,-13.75
837.016,,4.63
837.325,,-2.73
837.634,,-1.26
837.943,,10.75
838.252,,25.7
838.561,,-5.18
838.87,,3.89
839.178,,10.02
839.487,,-25.76
839.796,,-19.64
840.104,,9.28
840.413,,-29.19
840.721,,-17.92
841.03,,-5.18
841.338,,13.69
841.647,,4.14
841.955,,19.33
842.263,,-3.46
842.571,,7.81
842.879,,-5.67
843.187,,-23.56
843.495,,29.13
843.803,,12.96
844.111,,6.83
844.419,,18.84
844.726,,-4.69
845.034,,-13.75
845.342,,12.22
845.649,,-18.17
845.957,,22.52
846.264,,16.63
846.572,,-3.46
846.879,,-19.88
847.186,,9.28
847.493,,-9.59
847.801,,21.29
848.108,,18.35
848.415,,8.79
848.722,,-28.95
849.029,,-19.15
849.335,,-33.12
849.642,,-5.42
849.949,,15.16
850.256,,26.68
850.562,,3.89
850.869,,11.73
851.175,,12.71
851.482,,12.71
851.788,,-24.05
852.095,,20.8
852.401,,9.04
852.707,,-35.81
853.013,,16.14
853.319,,-6.89
853.625,,-11.55
853.931,,-0.03
854.237,,-25.27
854.543,,-3.46
854.849,,10.02
855.155,,1.68
855.46,,-1.26
855.766,,-0.28
856.072,,3.65
856.377,,17.61
856.683,,25.46
856.988,,-0.03
857.293,,10.75
857.599,,-2.97
857.904,,-3.22
858.209,,7.32
858.514,,19.58
858.819,,-4.2
859.124,,3.16
859.429,,-9.83
859.734,,-15.96
860.039,,5.61
860.343,,-26.74
860.648,,-21.11
860.953,,-9.59
861.257,,3.16
861.562,,-9.1
861.866,,46.53
862.171,,-40.47
862.475,,5.85
862.779,,-15.23
863.084,,25.7
863.388,,-1.26
863.692,,11
863.996,,-8.36
864.3,,19.58
864.604,,-9.59
864.908,,17.61
865.211,,-2.97
865.515,,-19.15
865.819,,-13.02
866.123,,-16.7
866.426,,-15.23
866.73,,-34.34
867.033,,-21.84
867.336,,13.45
867.64,,10.26
867.943,,3.89
868.246,,11
868.549,,7.08
868.853,,-7.38
869.156,,-30.17
869.459,,-36.79
869.762,,1.44
870.064,,12.47
870.367,,2.18
870.67,,4.63
870.973,,1.68
871.275,,20.07
871.578,,-30.42
871.88,,-2.48
872.183,,14.92
872.485,,14.43
872.787,,17.12
873.09,,21.05
873.392,,-27.23
873.694,,-19.88
873.996,,0.21
874.298,,-10.32
874.6,,-21.35
874.902,,-3.46
875.204,,14.92
875.506,,33.79
875.808,,3.4
876.109,,15.9
876.411,,48.49
876.712,,46.53
877.014,,-5.67
877.315,,15.9
877.617,,5.85
877.918,,11
878.219,,18.35
878.521,,11
878.822,,53.15
879.123,,31.09
879.424,,-7.87
879.725,,15.41
880.026,,15.65
880.326,,-6.16
880.627,,16.39
880.928,,8.06
881.229,,22.52
881.529,,-9.59
881.83,,14.43
882.13,,-0.28
882.431,,-11.79
882.731,,-16.21
883.031,,48.98
883.332,,-10.32
883.632,,5.85
883.932,,-0.77
884.232,,-9.83
884.532,,-36.3
884.832,,-7.38
885.132,,-14
885.432,,-23.56
885.732,,-16.7
886.031,,-21.84
886.331,,-14.24
886.63,,4.14
886.93,,6.1
887.229,,21.54
887.529,,7.08
887.828,,3.65
888.128,,23.01
888.427,,0.95
888.726,,-2.24
889.025,,-21.35
889.324,,-47.82
889.623,,-1.26
889.922,,-12.77
890.221,,-9.34
890.52,,7.57
890.818,,-14.74
891.117,,11.24
891.416,,-12.04
891.714,,42.86
892.013,,19.58
892.311,,7.81
892.61,,-22.58
892.908,,-7.38
893.206,,-8.12
893.505,,-22.58
893.803,,-23.56
894.101,,-18.66
894.399,,20.56
894.697,,4.38
894.995,,-12.04
895.293,,-14.74
895.59,,-7.63
895.888,,-12.04
896.186,,-6.89
896.483,,-15.47
896.781,,-16.94
897.078,,-17.19
897.376,,5.36
897.673,,8.3
897.971,,6.83
898.268,,-1.26
898.565,,-18.66
898.862,,2.18
899.159,,29.13
899.456,,-8.36
899.753,,-6.16
900.05,,-30.42
900.347,,-2.48
900.644,,5.61
900.94,,-23.07
901.237,,-4.44
901.534,,14.92
901.83,,10.26
902.126,,7.08
902.423,,-10.81
902.719,,11.73
903.016,,20.07
903.312,,-24.54
903.608,,-1.01
903.904,,6.59
904.2,,4.14
904.496,,-30.42
904.792,,-14
905.088,,10.26
905.384,,15.41
905.679,,-6.4
905.975,,-37.28
906.271,,-29.93
906.566,,-10.57
906.862,,8.3
907.157,,-39.24
907.452,,-14.74
907.748,,-23.56
908.043,,13.69
908.338,,-5.91
908.633,,-14
908.928,,-0.77
909.223,,-14.24
909.518,,35.01
909.813,,6.83
910.108,,8.79
910.403,,-5.18
910.698,,17.37
910.992,,7.81
911.287,,-25.03
911.581,,24.23
911.876,,-8.61
912.17,,-8.12
912.465,,17.61
912.759,,-40.47
913.053,,16.88
913.347,,-33.85
913.641,,8.79
913.935,,-13.51
914.229,,14.67
914.523,,7.32
914.817,,25.46
915.111,,-0.77
915.405,,17.37
915.698,,0.46
915.992,,7.32
916.285,,-5.18
916.579,,0.95
916.872,,41.63
917.166,,-19.39
917.459,,-4.93
917.752,,-19.39
918.045,,-22.09
918.338,,5.61
918.632,,31.58
918.925,,-5.18
919.217,,7.32
919.51,,-16.7
919.803,,43.1
920.096,,-21.84
920.389,,-21.6
920.681,,-3.46
920.974,,-8.85
921.266,,13.45
921.559,,-11.06
921.851,,6.1
922.143,,11.24
922.436,,4.14
922.728,,-8.36
923.02,,14.67
923.312,,8.79
923.604,,6.83
923.896,,-0.03
924.188,,7.57
924.48,,3.16
924.772,,0.21
925.063,,-8.85
925.355,,-39.49
925.647,,-30.66
925.938,,-33.61
926.23,,4.14
926.521,,-34.59
926.812,,3.89
927.104,,-2.97
927.395,,-5.67
927.686,,-0.28
927.977,,-5.18
928.268,,-14
928.559,,-22.33
928.85,,15.65
929.141,,-7.63
929.432,,-1.5
929.722,,40.9
930.013,,19.09
930.304,,4.38
930.594,,10.02
930.885,,29.13
931.175,,-42.43
931.465,,-17.92
931.756,,30.85
932.046,,23.5
932.336,,19.33
932.626,,-11.79
932.916,,0.95
933.206,,-5.18
933.496,,3.16
933.786,,23.99
934.076,,-7.63
934.365,,37.96
934.655,,34.77
934.945,,-12.77
935.234,,3.65
935.524,,-25.03
935.813,,-10.57
936.103,,5.12
936.392,,7.08
936.681,,32.32
936.97,,-17.68
937.259,,4.63
937.548,,24.72
937.837,,21.54
938.126,,-4.69
938.415,,18.35
938.704,,-51.99
938.993,,-2.97
939.281,,18.59
939.57,,-7.38
939.859,,-7.63
940.147,,18.59
940.436,,-15.23
940.724,,30.85
941.012,,-17.19
941.301,,13.45
941.589,,10.26
941.877,,-49.05
942.165,,-9.1
942.453,,23.01
942.741,,-19.88
943.029,,-10.57
943.316,,35.5
943.604,,14.67
943.892,,-7.14
944.18,,15.65
944.467,,3.89
944.755,,39.18
945.042,,7.32
945.329,,-27.72
945.617,,-16.94
945.904,,-18.66
946.191,,-32.63
946.478,,-1.01
946.765,,13.69
947.052,,31.09
947.339,,-2.97
947.626,,-2.24
947.913,,21.05
948.2,,-18.17
948.486,,-24.54
948.773,,-27.97
949.06,,7.08
949.346,,16.14
949.633,,-35.08
949.919,,26.68
950.205,,9.77
950.492,,10.02
950.778,,-3.46
951.064,,8.55
951.35,,0.46
951.636,,6.1
951.922,,3.65
952.208,,7.81
952.494,,2.42
952.779,,12.47
953.065,,-4.44
953.351,,-10.81
953.636,,-8.36
953.922,,-0.28
954.207,,-12.04
954.492,,10.75
954.778,,3.65
955.063,,20.07
955.348,,-27.72
955.633,,-2.97
955.918,,-37.04
956.203,,8.3
956.488,,5.85
956.773,,5.85
957.058,,-5.67
957.343,,19.82
957.627,,-8.61
957.912,,14.43
958.197,,-0.52
958.481,,31.83
958.766,,15.9
959.05,,24.48
959.334,,-11.3
959.619,,-7.87
959.903,,-5.18
960.187,,9.04
960.471,,-30.17
960.755,,10.75
961.039,,-6.4
961.323,,-1.26
961.606,,-24.78
961.89,,-31.65
962.174,,1.68
962.457,,19.82
962.741,,-1.99
963.025,,-11.55
963.308,,4.14
963.591,,-9.59
963.875,,-2.24
964.158,,-0.03
964.441,,-9.59
964.724,,-16.45
965.007,,-2.48
965.29,,4.38
965.573,,-36.79
965.856,,-1.75
966.139,,12.47
966.421,,5.12
966.704,,-26.25
966.987,,-12.04
967.269,,-39.49
967.552,,3.89
967.834,,-8.61
968.117,,-23.8
968.399,,20.07
968.681,,-18.17
968.963,,-22.33
969.245,,-8.85
969.527,,-0.52
969.809,,7.08
970.091,,-24.54
970.373,,-19.88
970.655,,7.32
970.937,,0.95
971.218,,-3.46
971.5,,-22.33
971.781,,-3.71
972.063,,19.82
972.344,,16.88
972.626,,-5.67
972.907,,-0.52
973.188,,-4.44
973.469,,38.2
973.75,,16.39
974.031,,-0.03
974.312,,17.12
974.593,,-38.75
974.874,,14.92
975.155,,9.28
975.435,,-19.15
975.716,,-10.81
975.997,,-3.95
976.277,,20.56
976.558,,24.23
976.838,,-10.08
977.118,,1.44
977.399,,30.11
977.679,,27.17
977.959,,-17.92
978.239,,-7.63
978.519,,-19.15
978.799,,-6.89
979.079,,-17.92
979.359,,19.33
979.638,,-6.65
979.918,,-2.24
980.198,,2.91
980.477,,-1.01
980.757,,26.19
981.036,,-12.04
981.315,,-7.87
981.595,,48.98
981.874,,11.98
982.153,,7.32
982.432,,4.38
982.711,,3.65
982.99,,21.78
983.269,,4.87
983.548,,-19.64
983.827,,-22.58
984.105,,-14
984.384,,-8.85
984.663,,-8.12
984.941,,-15.96
985.22,,4.87
985.498,,-1.26
985.776,,33.05
986.055,,-18.17
986.333,,26.68
986.611,,-11.55
986.889,,-4.44
987.167,,-10.08
987.445,,-16.7
987.723,,10.02
988.001,,-14.74
988.279,,-40.22
988.556,,14.18
988.834,,-10.81
989.112,,0.7
989.389,,-37.28
989.666,,-26.74
989.944,,1.19
990.221,,4.63
990.498,,4.38
990.776,,-34.1
991.053,,12.71
991.33,,13.2
991.607,,10.26
991.884,,-4.93
992.161,,3.89
992.437,,17.61
992.714,,-2.97
992.991,,-1.5
993.267,,-0.52
993.544,,20.8
993.82,,-12.53
994.097,,-5.67
994.373,,1.93
994.649,,16.39
994.926,,1.93
995.202,,-7.14
995.478,,9.77
995.754,,-23.31
996.03,,-1.5
996.306,,-0.77
996.582,,-23.31
996.857,,24.48
997.133,,2.18
997.409,,27.91
997.684,,3.16
997.96,,-2.48
998.235,,-2.48
998.511,,-26.01
998.786,,30.36
999.061,,-8.36
999.336,,7.32
999.611,,-37.53
999.886,,-12.53
1000.161,,15.41
1000.436,,-8.61
1000.711,,7.32
1000.986,,1.68
1001.261,,-29.68
1001.535,,-23.31
1001.81,,20.31
1002.085,,18.35
1002.359,,13.94
1002.633,,-15.72
1002.908,,9.28
1003.182,,9.28
1003.456,,-13.51
1003.73,,-20.37
1004.004,,11
1004.278,,-19.64
1004.552,,15.41
1004.826,,-3.46
1005.1,,-18.17
1005.374,,9.28
1005.648,,7.57
1005.921,,1.19
1006.195,,-23.8
1006.468,,-16.7
1006.742,,28.15
1007.015,,-11.3
1007.288,,-5.91
1007.562,,-6.16
1007.835,,2.91
1008.108,,33.79
1008.381,,-16.21
1008.654,,11.98
1008.927,,38.45
1009.2,,8.06
1009.472,,3.16
1009.745,,9.53
1010.018,,8.55
1010.29,,7.57
1010.563,,13.2
1010.835,,17.37
1011.108,,-17.19
1011.38,,-12.04
1011.652,,9.04
1011.924,,0.7
1012.197,,-23.31
1012.469,,11
1012.741,,36.24
1013.013,,-27.23
1013.284,,-13.26
1013.556,,7.81
1013.828,,-18.66
1014.1,,-2.48
1014.371,,0.7
1014.643,,-14
1014.914,,-11.06
1015.186,,-11.06
1015.457,,-11.06
